#Rx
# X(m), Y(m), Z(m), Distance(m), Power (dBm) Phase (deg)
1 111.98 -186.867 115.981 0 -95.7879 -116.185
2 108.98 -182.867 116.003 5 -91.8077 -174.804
3 105.98 -178.867 116.025 10 -89.5173 170.836
4 102.98 -174.867 116.047 15 -92.5082 137.086
5 99.9802 -170.867 116.069 20 -90.3022 139.253
6 96.9802 -166.867 116.09 25 -98.1134 16.7527
7 93.9802 -162.867 116.112 30 -100.384 -157.099
8 90.9802 -158.867 116.134 35 -98.5348 -18.1809
9 87.9802 -154.867 116.156 40 -102.525 97.0251
10 84.9802 -150.867 116.178 45 -107.552 91.0819
11 81.9802 -146.867 116.2 50 -106.828 37.8594
12 78.9802 -142.867 116.222 55 -114.44 146.699
13 79.9607 -138.387 116.144 60 -107.085 -15.308
14 81.9241 -133.789 116.133 65 -100.266 179.377
15 83.8874 -129.19 116.142 70 -100.992 6.54143
16 85.8508 -124.592 116.151 75 -102.625 -136.484
17 87.8142 -119.993 116.161 80 -99.7095 -100.207
18 89.7775 -115.395 116.17 85 -115.962 65.4382
19 91.7409 -110.797 116.18 90 -106.516 36.4676
20 93.7042 -106.198 116.189 95 -100.291 -116.797
21 95.6676 -101.6 116.198 100 -100.545 -155.564
22 97.6309 -97.0015 116.208 105 -108.505 -57.1244
23 99.5943 -92.4031 116.217 110 -104.938 -30.6339
24 101.558 -87.8047 116.226 115 -110.394 53.0061
25 103.521 -83.2063 116.236 120 -119.187 46.3571
26 105.965 -78.9659 116.242 125 -102.643 -89.2611
27 109.807 -75.765 116.236 130 -102.137 -23.4172
28 113.648 -72.5641 116.231 135 -100.081 62.5237
29 117.489 -69.3632 116.226 140 -107.984 84.8062
30 121.33 -66.1622 116.221 145 -101.617 97.9264
31 125.171 -62.9613 116.216 150 -106.098 -160.444
32 129.012 -59.7604 116.211 155 -108.898 -125.698
33 132.853 -56.5595 116.206 160 -102.387 -96.1523
34 136.694 -53.3586 116.201 165 -114.405 16.9295
35 140.535 -50.1576 116.196 170 -109.307 -43.3185
36 144.376 -46.9567 116.191 175 -103.864 -61.553
37 148.218 -43.7558 116.186 180 -106.232 -42.119
38 152.059 -40.5549 116.181 185 -119.009 147.788
39 155.9 -37.3539 116.175 190 -108.983 6.27186
40 159.741 -34.153 116.17 195 -108.572 -152.719
41 163.582 -30.9521 116.165 200 -107.498 -22.9964
42 167.423 -27.7512 116.185 205 -119.927 -174.913
43 171.264 -24.5503 116.232 210 -115.007 -160.755
44 175.105 -21.3493 116.279 215 -116.164 100.392
45 178.946 -18.1484 116.325 220 -115.112 109.577
46 178.725 -14.5724 116.399 225 -111.017 -22.8322
47 175.535 -10.7223 116.492 230 -124.538 -153.17
48 172.345 -6.87217 116.584 235 -117.814 -77.5284
49 169.155 -3.02206 116.677 240 -125.568 -148.985
50 165.964 0.828046 116.77 245 -116.314 156.925
51 162.774 4.67815 116.863 250 -133.163 -0.92651
52 159.584 8.52826 116.955 255 -124.154 31.7207
53 156.394 12.3784 117.048 260 -144.408 -4.96206
54 153.204 16.2285 117.141 265 -111.701 88.5179
55 150.014 20.0786 117.234 270 -107.047 -47.6449
56 146.824 23.9287 117.327 275 -109.713 170.557
57 143.634 27.7788 117.419 280 -109.046 -11.5365
58 140.444 31.6289 117.512 285 -114.38 -96.017
59 137.254 35.479 117.605 290 -118.274 136.783
60 134.064 39.3291 117.698 295 -120.511 -61.9722
61 130.873 43.1792 117.791 300 -116.705 -167.316
62 127.683 47.0293 117.883 305 -114.593 97.668
63 124.493 50.8794 117.976 310 -113.881 -64.7966
64 121.303 54.7296 118.069 315 -128.366 10.2277
65 121.56 58.2657 118.139 320 -124.037 5.79191
66 125.393 61.476 118.25 325 -123.64 -33.0321
67 129.227 64.6863 118.42 330 -250 0
68 133.06 67.8967 118.591 335 -110.367 79.5779
69 136.893 71.107 118.762 340 -103.232 -120.167
70 140.726 74.3173 118.933 345 -115.897 -6.88702
71 144.56 77.5277 119.103 350 -123.735 90.8329
72 148.393 80.738 119.274 355 -115.885 22.1938
73 152.226 83.9484 119.445 360 -112.118 -21.6682
74 156.059 87.1587 119.616 365 -127.125 -49.8694
75 159.893 90.369 119.787 370 -117.284 94.6967
76 163.726 93.5794 119.957 375 -131.218 -24.5316
77 167.559 96.7897 120.128 380 -130.273 170.113
78 171.392 100 120.299 385 -125.835 52.1949
79 175.226 103.21 120.47 390 -137.382 76.2411
