#Rx
# X(m), Y(m), Z(m), Distance(m), Power (dBm) Phase (deg)
1 111.98 -187.567 115.99 0 -85.4345 -61.5417
2 109.037 -183.525 116.01 5 -84.3453 -50.6317
3 106.094 -179.483 116.03 10 -87.8075 -77.6715
4 103.151 -175.441 116.05 15 -94.0966 -90.2398
5 100.207 -171.399 116.07 20 -96.4306 -103.526
6 97.2642 -167.357 116.09 25 -95.3268 -120.544
7 94.3211 -163.315 116.11 30 -99.0319 148.729
8 91.3779 -159.273 116.13 35 -96.6016 -115.061
9 88.4347 -155.231 116.15 40 -99.6327 86.6219
10 85.4915 -151.189 116.17 45 -105.48 -138.185
11 82.5483 -147.147 116.19 50 -107.131 -71.773
12 79.6051 -143.105 116.21 55 -107.058 95.532
13 76.6619 -139.063 116.23 60 -104.192 129.211
14 73.7187 -135.021 116.25 65 -110.899 9.94262
15 70.7755 -130.979 116.27 70 -101.575 15.6848
16 67.8323 -126.937 116.29 75 -100.356 70.946
17 64.8891 -122.895 116.31 80 -105.037 -85.471
18 61.946 -118.853 116.33 85 -107.574 -54.5997
19 59.6748 -114.674 116.333 90 -109.738 -77.9533
20 60.7956 -109.801 116.329 95 -106.088 96.7592
21 61.9163 -104.928 116.343 100 -97.6659 -5.24939
22 63.037 -100.055 116.358 105 -104.705 -44.2677
23 64.1578 -95.1827 116.372 110 -112.127 13.5142
24 65.2785 -90.3099 116.387 115 -111.944 80.1492
25 66.3993 -85.4371 116.401 120 -104.303 71.1725
26 67.52 -80.5643 116.415 125 -96.7024 -22.5892
27 68.6407 -75.6916 116.43 130 -108.436 -102.536
28 69.7615 -70.8188 116.444 135 -103.28 -62.8763
29 70.8822 -65.946 116.459 140 -106.708 -167.7
30 72.0029 -61.0732 116.473 145 -98.8828 92.4387
31 73.1237 -56.2004 116.488 150 -121.586 99.6385
32 74.2444 -51.3277 116.502 155 -120.18 11.5564
33 75.3652 -46.4549 116.517 160 -106.718 -79.8758
34 72.9995 -42.4257 116.544 165 -105.307 79.2429
35 69.7751 -38.6042 116.574 170 -107.739 -22.2557
36 66.5508 -34.7828 116.605 175 -124.7 37.36
37 63.3264 -30.9613 116.636 180 -107.705 0.120577
38 60.102 -27.1399 116.701 185 -108.94 -94.9034
39 56.8777 -23.3184 116.794 190 -108.345 113.205
40 60.225 -19.9851 116.845 195 -96.4928 -151.515
41 63.9786 -16.6819 116.894 200 -103.139 38.1422
42 67.7322 -13.3788 116.944 205 -116.381 -16.4921
43 71.4857 -10.0757 116.993 210 -105.256 -30.1009
44 74.2987 -6.30123 117.056 215 -108.605 -46.5733
45 74.6974 -1.31715 117.155 220 -116.497 42.4035
46 75.0961 3.66692 117.254 225 -117.281 106.372
47 75.4949 8.651 117.352 230 -107.271 115.954
48 75.8936 13.6351 117.451 235 -105.875 94.1788
49 76.2923 18.6192 117.55 240 -110.777 131.664
50 76.691 23.6032 117.649 245 -107.188 98.8915
51 77.0898 28.5873 117.748 250 -124.178 -78.1336
52 77.4885 33.5714 117.847 255 -110.265 37.3005
53 77.8872 38.5555 117.946 260 -108.853 -34.4302
54 78.2859 43.5395 118.045 265 -110.056 90.9569
55 81.6188 46.6798 118.092 270 -105.771 78.0516
56 85.9366 49.2011 118.123 275 -112.287 -56.9277
57 90.2543 51.7224 118.154 280 -113.094 48.162
58 94.5721 54.2437 118.185 285 -117.018 -47.2859
59 98.8898 56.765 118.215 290 -109.944 -135.909
60 103.208 59.2863 118.246 295 -110.855 128.874
61 107.525 61.8077 118.277 300 -129.249 80.2557
62 111.843 64.329 118.307 305 -126.813 7.80788
63 116.161 66.8503 118.338 310 -250 0
64 120.479 69.3716 118.468 315 -250 0
65 124.796 71.8929 118.62 320 -250 0
66 129.114 74.4142 118.773 325 -250 0
67 133.432 76.9355 118.925 330 -115.795 100.118
68 137.75 79.4569 119.078 335 -109.014 -46.8865
69 142.067 81.9782 119.23 340 -118.625 -60.8975
70 146.385 84.4995 119.383 345 -114.998 114.811
71 150.703 87.0208 119.535 350 -113.734 -83.2291
72 155.021 89.5421 119.688 355 -121.953 101.012
73 159.338 92.0634 119.84 360 -122.525 130.345
74 163.656 94.5847 119.993 365 -129.396 2.21519
75 167.974 97.1061 120.145 370 -132.838 -58.4647
76 172.292 99.6274 120.298 375 -137.511 32.693
