#Rx
# X(m), Y(m), Z(m), Distance(m), Power (dBm) Phase (deg)
1 111.98 -187.567 115.99 0 -107.858 -54.2891
2 109.037 -183.525 116.01 5 -106.53 107.045
3 106.094 -179.483 116.03 10 -107.685 -92.9004
4 103.151 -175.441 116.05 15 -111.644 -3.03311
5 100.207 -171.399 116.07 20 -107.469 51.6264
6 97.2642 -167.357 116.09 25 -104.992 68.5265
7 94.3211 -163.315 116.11 30 -112.761 42.3242
8 91.3779 -159.273 116.13 35 -106.471 55.3266
9 88.4347 -155.231 116.15 40 -107.767 7.27682
10 85.4915 -151.189 116.17 45 -104.586 -90.8798
11 82.5483 -147.147 116.19 50 -112.429 152.056
12 79.6051 -143.105 116.21 55 -108.004 12.4651
13 76.6619 -139.063 116.23 60 -107.671 153.187
14 73.7187 -135.021 116.25 65 -116.366 140.993
15 70.7755 -130.979 116.27 70 -110.261 -176.437
16 67.8323 -126.937 116.29 75 -106.019 115.68
17 64.8891 -122.895 116.31 80 -115.589 145.909
18 61.946 -118.853 116.33 85 -109.98 -178.743
19 59.6748 -114.674 116.333 90 -109.868 -166.151
20 60.7956 -109.801 116.329 95 -115.539 124.378
21 61.9163 -104.928 116.343 100 -103.751 -171.982
22 63.037 -100.055 116.358 105 -107.098 146.057
23 64.1578 -95.1827 116.372 110 -99.6458 134.218
24 65.2785 -90.3099 116.387 115 -103.639 -165.642
25 66.3993 -85.4371 116.401 120 -99.0345 30.8374
26 67.52 -80.5643 116.415 125 -100.104 12.4112
27 68.6407 -75.6916 116.43 130 -98.5831 -63.821
28 69.7615 -70.8188 116.444 135 -101.89 136.014
29 70.8822 -65.946 116.459 140 -103.791 -86.6904
30 72.0029 -61.0732 116.473 145 -104.849 46.465
31 73.1237 -56.2004 116.488 150 -107.071 67.6332
32 74.2444 -51.3277 116.502 155 -103.76 60.5941
33 75.3652 -46.4549 116.517 160 -115.628 74.641
34 72.9995 -42.4257 116.544 165 -108.054 -91.5344
35 69.7751 -38.6042 116.574 170 -99.4906 15.7872
36 66.5508 -34.7828 116.605 175 -99.6924 50.2893
37 63.3264 -30.9613 116.636 180 -119.594 118.638
38 60.102 -27.1399 116.701 185 -111.465 -140.055
39 56.8777 -23.3184 116.794 190 -107.039 -141.486
40 60.225 -19.9851 116.845 195 -103.286 -63.1094
41 63.9786 -16.6819 116.894 200 -109.13 131.515
42 67.7322 -13.3788 116.944 205 -108.016 -129.357
43 71.4857 -10.0757 116.993 210 -103.266 -121.712
44 74.2987 -6.30123 117.056 215 -105.05 -1.94674
45 74.6974 -1.31715 117.155 220 -107.297 7.44251
46 75.0961 3.66692 117.254 225 -100.584 8.60001
47 75.4949 8.651 117.352 230 -110.357 -24.779
48 75.8936 13.6351 117.451 235 -107.043 11.2827
49 76.2923 18.6192 117.55 240 -99.4652 5.66379
50 76.691 23.6032 117.649 245 -105.589 21.2409
51 77.0898 28.5873 117.748 250 -103.764 -56.6442
52 77.4885 33.5714 117.847 255 -100.403 17.0903
53 77.8872 38.5555 117.946 260 -102.464 19.2782
54 78.2859 43.5395 118.045 265 -102.055 12.187
55 81.6188 46.6798 118.092 270 -101.678 165.606
56 85.9366 49.2011 118.123 275 -99.4376 -85.8896
57 90.2543 51.7224 118.154 280 -104.907 -0.263266
58 94.5721 54.2437 118.185 285 -99.415 68.2523
59 98.8898 56.765 118.215 290 -100.224 100.89
60 103.208 59.2863 118.246 295 -101.216 90.1938
61 107.525 61.8077 118.277 300 -95.899 56.1804
62 111.843 64.329 118.307 305 -99.5242 -33.6093
63 116.161 66.8503 118.338 310 -100.564 90.3817
64 120.479 69.3716 118.468 315 -102.767 9.02849
65 124.796 71.8929 118.62 320 -97.6937 25.5387
66 129.114 74.4142 118.773 325 -96.1857 134.367
67 133.432 76.9355 118.925 330 -96.1907 108.401
68 137.75 79.4569 119.078 335 -98.6947 -10.0885
69 142.067 81.9782 119.23 340 -97.0887 89.3618
70 146.385 84.4995 119.383 345 -102.187 13.5902
71 150.703 87.0208 119.535 350 -107.75 72.7926
72 155.021 89.5421 119.688 355 -106.736 -164.64
73 159.338 92.0634 119.84 360 -108.174 -54.0711
74 163.656 94.5847 119.993 365 -107.374 -22.4591
75 167.974 97.1061 120.145 370 -131.807 -41.7975
76 172.292 99.6274 120.298 375 -122.382 85.3671
