#Rx
# X(m), Y(m), Z(m), Distance(m), Power (dBm) Phase (deg)
1 111.98 -187.567 115.99 0 -104.206 -38.0567
2 109.037 -183.525 116.01 5 -103.251 27.175
3 106.094 -179.483 116.03 10 -102.586 -176.501
4 103.151 -175.441 116.05 15 -103.933 2.81063
5 100.207 -171.399 116.07 20 -101.05 -6.24035
6 97.2642 -167.357 116.09 25 -103.195 -148.089
7 94.3211 -163.315 116.11 30 -110.473 -93.9614
8 91.3779 -159.273 116.13 35 -105.107 -42.6273
9 88.4347 -155.231 116.15 40 -106.241 -33.3195
10 85.4915 -151.189 116.17 45 -109.74 125.203
11 82.5483 -147.147 116.19 50 -109.059 -76.9226
12 79.6051 -143.105 116.21 55 -104.449 72.8111
13 76.6619 -139.063 116.23 60 -99.9813 117.525
14 73.7187 -135.021 116.25 65 -117.141 119.149
15 70.7755 -130.979 116.27 70 -102.12 -66.9745
16 67.8323 -126.937 116.29 75 -111.977 -28.3073
17 64.8891 -122.895 116.31 80 -108.314 96.8696
18 61.946 -118.853 116.33 85 -105.877 -86.4738
19 59.6748 -114.674 116.333 90 -97.1873 -155.691
20 60.7956 -109.801 116.329 95 -104.334 57.7974
21 61.9163 -104.928 116.343 100 -120.412 -41.2685
22 63.037 -100.055 116.358 105 -103.846 -46.3516
23 64.1578 -95.1827 116.372 110 -116.461 -96.7501
24 65.2785 -90.3099 116.387 115 -103.855 -72.928
25 66.3993 -85.4371 116.401 120 -104.616 -70.3213
26 67.52 -80.5643 116.415 125 -121.126 -169.806
27 68.6407 -75.6916 116.43 130 -107.268 50.148
28 69.7615 -70.8188 116.444 135 -106.413 111.109
29 70.8822 -65.946 116.459 140 -102.927 159.051
30 72.0029 -61.0732 116.473 145 -100.302 -24.1418
31 73.1237 -56.2004 116.488 150 -95.6221 -88.0326
32 74.2444 -51.3277 116.502 155 -96.8364 90.2199
33 75.3652 -46.4549 116.517 160 -107.001 -25.1877
34 72.9995 -42.4257 116.544 165 -103.94 -89.7896
35 69.7751 -38.6042 116.574 170 -101.771 137.927
36 66.5508 -34.7828 116.605 175 -99.7653 -30.3803
37 63.3264 -30.9613 116.636 180 -101.335 112.673
38 60.102 -27.1399 116.701 185 -101.567 140.528
39 56.8777 -23.3184 116.794 190 -106.999 178.466
40 60.225 -19.9851 116.845 195 -104.252 -76.5771
41 63.9786 -16.6819 116.894 200 -106.303 -174.747
42 67.7322 -13.3788 116.944 205 -106.896 -33.6799
43 71.4857 -10.0757 116.993 210 -100.225 45.9532
44 74.2987 -6.30123 117.056 215 -103.084 -29.8365
45 74.6974 -1.31715 117.155 220 -111.904 55.0279
46 75.0961 3.66692 117.254 225 -101.649 54.3449
47 75.4949 8.651 117.352 230 -105.585 -134.117
48 75.8936 13.6351 117.451 235 -107.554 125.236
49 76.2923 18.6192 117.55 240 -104.409 179.911
50 76.691 23.6032 117.649 245 -115.454 57.1393
51 77.0898 28.5873 117.748 250 -109.718 -62.0362
52 77.4885 33.5714 117.847 255 -109.261 65.2983
53 77.8872 38.5555 117.946 260 -103.554 -114.189
54 78.2859 43.5395 118.045 265 -101.91 94.1018
55 81.6188 46.6798 118.092 270 -108.547 105.388
56 85.9366 49.2011 118.123 275 -109.962 -29.98
57 90.2543 51.7224 118.154 280 -108.107 -170.938
58 94.5721 54.2437 118.185 285 -111.314 26.3318
59 98.8898 56.765 118.215 290 -114.621 -43.9962
60 103.208 59.2863 118.246 295 -109.257 -94.0788
61 107.525 61.8077 118.277 300 -105.521 114.302
62 111.843 64.329 118.307 305 -104.122 -32.0861
63 116.161 66.8503 118.338 310 -105.002 -89.1572
64 120.479 69.3716 118.468 315 -112.777 -152.526
65 124.796 71.8929 118.62 320 -119.449 -82.7504
66 129.114 74.4142 118.773 325 -114.949 43.786
67 133.432 76.9355 118.925 330 -106.516 115.857
68 137.75 79.4569 119.078 335 -111.612 -62.5582
69 142.067 81.9782 119.23 340 -115.87 -100.962
70 146.385 84.4995 119.383 345 -117.324 176.351
71 150.703 87.0208 119.535 350 -118.874 86.9784
72 155.021 89.5421 119.688 355 -119.553 -130.532
73 159.338 92.0634 119.84 360 -113.198 55.3096
74 163.656 94.5847 119.993 365 -117.53 5.2217
75 167.974 97.1061 120.145 370 -122.143 24.1391
76 172.292 99.6274 120.298 375 -120.332 176.197
